Theta [deg] SPL_Th [dB] SPL_L [dB] SPL [dB] 
90.000000 86.400947 65.830369 87.178451
90.000000 60.773539 37.725248 61.364478
90.000000 38.850964 18.601192 39.656406
90.000000 32.227733 1.571558 32.478757
90.000000 -0.025991 -14.608594 1.459964
90.000000 8.831585 -30.188529 8.928276
90.000000 -7.014580 -45.169838 -6.907827
90.000000 -8.381871 -59.465586 -8.357659
90.000000 -11.388422 -72.978656 -11.381193
90.000000 -21.492468 -85.667935 -21.487099
