Theta [deg] SPL_Th [dB] SPL_L [dB] SPL [dB] 
56.250008 79.440205 77.040075 84.343380
56.250008 60.367988 44.805805 61.707044
56.250008 34.350516 21.805940 36.190348
56.250008 24.193114 1.684769 24.820616
56.250008 -0.539634 -17.282953 0.640195
56.250008 -11.951926 -35.601779 -11.399298
56.250008 -44.845874 -53.424353 -42.095899
56.250008 -48.443872 -70.779539 -47.804223
56.250008 -55.698051 -87.648227 -55.481342
56.250008 -63.018665 -104.001466 -62.941442
