Theta [deg] SPL_Th [dB] SPL_L [dB] SPL [dB] 
112.500004 82.029244 54.573729 82.389817
112.500004 45.304445 17.430446 45.648388
112.500004 36.477205 -6.633695 36.537705
112.500004 20.266101 -27.298583 20.302381
112.500004 -12.378936 -46.605123 -12.211704
112.500004 -53.177922 -64.854894 -51.165644
112.500004 -22.165687 -82.061450 -22.156900
112.500004 -30.386042 -98.261720 -30.382535
112.500004 -47.258477 -113.588037 -47.254287
112.500004 -68.979637 -128.230308 -68.970173
