Theta [deg] SPL_Th [dB] SPL_L [dB] SPL [dB] 
101.250002 85.316482 62.018471 85.891215
101.250002 56.466463 31.641909 56.951098
101.250002 41.342234 11.337790 41.612516
101.250002 30.476116 -6.605697 30.596815
101.250002 1.111093 -23.596569 1.602112
101.250002 -1.676624 -39.885861 -1.570528
101.250002 -11.824755 -55.455470 -11.767757
101.250002 -9.731150 -70.214567 -9.722938
101.250002 -18.172827 -84.099790 -18.168439
101.250002 -33.552776 -97.136969 -33.547029
