Theta [deg] SPL_Th [dB] SPL_L [dB] SPL [dB] 
135.000005 66.775528 28.462964 66.880377
135.000005 18.016658 -5.869850 18.554883
135.000005 -1.253923 -42.543933 -1.179373
135.000005 -37.008811 -77.970097 -36.931398
135.000005 -78.934854 -112.821372 -78.761020
135.000005 -99.470812 -147.572261 -99.436701
135.000005 -118.722076 -182.975332 -118.716755
135.000005 -152.937188 -221.973048 -152.934120
135.000005 -164.144493 -255.263798 -164.144251
135.000005 -191.755857 -273.577844 -191.755153
