# Theta [deg] SPL_Th [dB] SPL_L [dB] SPL [dB] 
11.249998 15.424243 20.793292 24.537776
11.249998 -59.624938 -71.572059 -57.667841
11.249998 -144.384336 -154.995487 -142.140669
11.249998 -217.654833 -235.375910 -216.593258
11.249998 -291.442206 -314.318718 -290.839864
11.249998 -382.524576 -392.283091 -380.079322
11.249998 -444.497644 -469.400557 -444.017244
11.249998 -532.674456 -545.719973 -530.928043
11.249998 -599.159282 -621.297503 -598.505466
11.249998 -665.332367 -696.221291 -665.087888
