Theta [deg] SPL_Th [dB] SPL_L [dB] SPL [dB] 
84.725269 69.567843 53.858392 70.886012
84.725269 45.213618 21.514503 45.763217
84.725269 37.167588 -2.220131 37.260294
84.725269 15.940097 -21.270763 16.059028
84.725269 3.739302 -37.511665 3.814187
84.725269 -4.838238 -52.073082 -4.800556
84.725269 -28.056540 -65.525122 -27.941063
84.725269 -39.479508 -78.172407 -39.379125
84.725269 -44.766220 -90.203128 -44.719896
84.725269 -47.209778 -101.746606 -47.193501
