Theta [deg] SPL_Th [dB] SPL_L [dB] SPL [dB] 
67.500013 84.040112 79.464240 88.070685
67.500013 67.597404 50.829602 68.774126
67.500013 48.925497 31.647555 50.039218
67.500013 37.780921 15.384034 38.416238
67.500013 22.463195 0.242711 23.111072
67.500013 7.100054 -14.306037 7.809082
67.500013 -16.237449 -28.431770 -14.329658
67.500013 -23.298682 -42.178598 -22.362820
67.500013 -17.936044 -55.537030 -17.822303
67.500013 -37.017549 -68.475352 -36.788367
