# Theta [deg] SPL_Th [dB] SPL_L [dB] SPL [dB] 
67.500013 65.750956 71.766028 75.289696
67.500013 41.786548 32.679388 44.396201
67.500013 -5.479668 2.309836 5.281105
67.500013 -8.741550 -25.181251 -7.522565
67.500013 -40.455547 -51.392038 -38.284879
67.500013 -58.574749 -76.796593 -57.569336
67.500013 -87.577890 -101.533523 -85.990300
67.500013 -126.765005 -125.632583 -120.159752
67.500013 -127.572140 -149.101089 -126.872680
67.500013 -144.346636 -171.964073 -143.992588
