Theta [deg] SPL_Th [dB] SPL_L [dB] SPL [dB] 
101.250002 86.531102 74.825956 88.537561
101.250002 71.583778 44.594312 71.963798
101.250002 56.191756 26.021671 56.457010
101.250002 45.007851 11.440071 45.188116
101.250002 33.705134 -1.782730 33.849944
101.250002 16.903678 -14.422467 17.136315
101.250002 -1.822219 -26.720686 -1.341579
101.250002 -15.028706 -38.755826 -14.480822
101.250002 0.368227 -50.541411 0.392928
101.250002 -25.999785 -62.056311 -25.864082
