Theta [deg] SPL_Th [dB] SPL_L [dB] SPL [dB] 
135.000005 72.043023 43.911147 72.377096
135.000005 48.512882 21.891079 48.908963
135.000005 1.928158 -5.660544 4.958080
135.000005 0.690750 -31.587904 0.899512
135.000005 -39.093976 -56.474231 -37.992503
135.000005 -46.454539 -80.607995 -46.285915
135.000005 -81.876721 -104.094478 -81.228648
135.000005 -101.914284 -126.964279 -101.441735
135.000005 -117.309625 -149.232532 -117.092243
135.000005 -123.013002 -170.929239 -122.978158
