# Theta [deg] SPL_Th [dB] SPL_L [dB] SPL [dB] 
56.250008 60.996067 68.651136 71.661566
56.250008 33.242978 25.531179 36.236830
56.250008 -11.053244 -9.048944 -3.972809
56.250008 -26.052753 -40.762560 -24.586677
56.250008 -58.345874 -71.158327 -56.556542
56.250008 -85.058946 -100.695713 -83.730506
56.250008 -114.050706 -129.510233 -112.696909
56.250008 -169.055228 -157.638554 -155.571805
56.250008 -164.520515 -185.104892 -163.744191
56.250008 -194.865418 -211.956389 -193.728982
