# Theta [deg] SPL_Th [dB] SPL_L [dB] SPL [dB] 
67.500013 82.109820 66.020039 83.375433
67.500013 48.436612 34.888443 50.093612
67.500013 34.760856 11.961118 35.368363
67.500013 19.728042 -8.951384 20.042070
67.500013 -13.306243 -28.967299 -11.981244
67.500013 -24.142947 -48.299682 -23.620724
67.500013 -24.976365 -66.922099 -24.907214
67.500013 -30.351316 -84.733364 -30.334747
67.500013 -43.830839 -101.653390 -43.819686
67.500013 -68.846498 -117.690885 -68.815179
