Theta [deg] SPL_Th [dB] SPL_L [dB] SPL [dB] 
89.999997 72.151134 50.732106 72.859149
89.999997 49.333529 18.372491 49.576014
89.999997 20.890679 -5.927882 21.278084
89.999997 10.511027 -25.251375 10.651367
89.999997 1.384380 -41.413992 1.447089
89.999997 -17.029193 -55.761335 -16.929261
89.999997 -21.939584 -68.966887 -21.900994
89.999997 -23.013586 -81.364346 -23.003090
89.999997 -29.885796 -93.149164 -29.879833
89.999997 -40.670230 -104.452557 -40.664613
