Theta [deg] SPL_Th [dB] SPL_L [dB] SPL [dB] 
135.000005 67.039901 14.893439 67.061327
135.000005 18.469635 -13.909135 18.676034
135.000005 -0.682493 -51.827904 -0.658453
135.000005 -32.826082 -88.155207 -32.811223
135.000005 -86.847833 -123.653721 -86.723266
135.000005 -94.492582 -159.665814 -94.487795
135.000005 -126.596481 -201.994326 -126.595005
135.000005 -154.950464 -225.237669 -154.947807
135.000005 -185.324441 -246.205491 -185.316597
135.000005 -198.223470 -270.559535 -198.221372
