# Theta [deg] SPL_Th [dB] SPL_L [dB] SPL [dB] 
90.000000 69.283180 72.101177 76.826563
90.000000 48.088871 35.236916 49.870861
90.000000 -17.789412 7.731596 8.179835
90.000000 3.901961 -16.740956 4.673295
90.000000 -29.324205 -39.951283 -27.084162
90.000000 -39.455930 -62.421307 -38.859514
90.000000 -69.640305 -84.303124 -68.166914
90.000000 -96.275576 -105.621925 -93.727366
90.000000 -102.263047 -126.363227 -101.737513
90.000000 -110.226167 -146.517633 -110.094057
