# Theta [deg] SPL_Th [dB] SPL_L [dB] SPL [dB] 
56.250008 76.238234 62.012873 77.781346
56.250008 28.526602 25.578692 33.197713
56.250008 21.934452 -2.780744 22.425057
56.250008 -0.713700 -29.076399 -0.388226
56.250008 -41.933449 -54.377358 -40.074311
56.250008 -55.013863 -78.857763 -54.473072
56.250008 -56.411416 -102.459704 -56.368232
56.250008 -72.425247 -125.086147 -72.405051
56.250008 -103.440233 -146.714786 -103.380858
56.250008 -110.141421 -167.441155 -110.129576
