# Theta [deg] SPL_Th [dB] SPL_L [dB] SPL [dB] 
112.500004 65.606463 64.945173 71.302709
112.500004 41.843408 22.454352 42.728612
112.500004 -1.398891 -9.281030 1.545642
112.500004 -8.858463 -37.426598 -8.540458
112.500004 -38.768726 -64.273708 -38.319680
112.500004 -58.986850 -90.523342 -58.759707
112.500004 -85.951609 -116.414453 -85.695018
112.500004 -133.945089 -142.035053 -131.059802
112.500004 -127.250624 -167.412656 -127.165786
112.500004 -147.467956 -192.546640 -147.419686
