# Theta [deg] SPL_Th [dB] SPL_L [dB] SPL [dB] 
11.250007 13.705691 22.470100 25.170009
11.250007 -59.937875 -70.055467 -57.579361
11.250007 -139.492409 -153.689856 -137.944747
11.250007 -229.173753 -234.132674 -225.283426
11.250007 -289.973044 -313.027549 -289.382514
11.250007 -368.801492 -390.875507 -368.143004
11.250007 -449.508256 -467.842060 -448.515011
11.250007 -518.939109 -544.006451 -518.467477
11.250007 -606.079344 -619.448382 -604.390967
11.250007 -672.012129 -694.267996 -671.366790
