# Theta [deg] SPL_Th [dB] SPL_L [dB] SPL [dB] 
90.000000 87.542314 78.225178 90.097961
90.000000 72.302790 50.887703 73.011113
90.000000 59.373092 34.018716 59.829789
90.000000 45.360076 20.425548 45.838778
90.000000 37.848723 8.000277 38.123826
90.000000 13.978268 -3.870980 15.025194
90.000000 -2.984733 -15.386968 -1.117549
90.000000 -5.204991 -26.611518 -4.495997
90.000000 5.974933 -37.551568 6.032615
90.000000 -2.893616 -48.184537 -2.846509
